Folder: rigakuXRD/inst/extdata

Note: README.md
# rigakuXRD

<!-- badges: start -->
<!-- badges: end -->

The goal of rigakuXRD is to analyze x-ray diffraction data from the Rigaku Smartlab x-ray diffractometer.

## Installation

You can install the released version of rigakuXRD from [GitHub](https://github.com/thomasgredig/rigakuXRD) with:

``` r
# install.packages("devtools")
devtools::install_github("thomasgredig/rigakuXRD")
```

## Example

This is a basic example which shows you how to analyze the XRD data:

``` r
library(rigakuXRD)
## basic example code
```

File: 2Theta.asc
*TYPE		=  Raw
*CLASS		=  ASCII CLASS
*SAMPLE		=  JC170705CuPcAuCrSi5
*COMMENT	=
*FNAME		=  JC170705CuPcAuCrSi5_Theta_2-Theta.asc
*DATE		=  12-Jul-17 17:31

*GROUP_COUNT	=  1
*GONIO		=  SmartLab, 0.000000
*ATTACHMENT	=  Standard Z stage
*ASC		=  0, 0, 0.000000, 0.000000
*I_MONOCHRO	=  Soller_slit_5.0deg, 0.000000
*FILTER		=  Cu_K-beta
*C_MONOCHRO	=  None, 0.000000
*SLIT_NAME	=  0, Incident slit
*SLIT_NAME	=  1, Receiving slit # 1
*SLIT_NAME	=  2, Receiving slit # 2
*COUNTER	=  SC-70, 0
*POS_FORMAT	=  0
*SCAN_AXIS	=  2theta/theta
*MEAS_MODE	=  Continuous Scanning
*TARGET		=  29
*XRAY_CHAR	=  K-ALPHA
*WAVE_LENGTH1	=  1.54059
*WAVE_LENGTH2	=  1.54441
*THICKNESS	=  0, 0.000000
*MU		=  0, 0.000000
*SCAN_MODE	=  2theta/theta
*SPEED_DIM	=  sec./step
*XUNIT		=  deg.
*YUNIT		=  counts
*SCALE_MODE	=  1
*REP_COUNT	=  0
*SE_COUNT	=  0
*STD_MATERIAL	=  Unknown, Unknown, 0.000000, 0.000000, 0.000000, 0.000000, 0.000000, 0.000000
*LATT_CONS	=  0, Unknown, Unknown, 0.000000, 0.000000, 0.000000, 0.000000, 0.000000, 0.000000
*SEC_COUNT	=  1
*TSPEC_SIZE	=  0
*EXTRA_SIZE	=  0
*MEMO		=  Pre CuPc

*BEGIN
*GROUP		=  0
*START		=  4
*STOP		=  80
*STEP		=  0.01
*OFFSET		=  0.000000
*SPEED		=  0.6
*SLIT_SPEC	=  0, 2/3deg, 2, 0.000000
*SLIT_SPEC	=  1, 2/3deg, 2, 0.000000
*SLIT_SPEC	=  2, 0.300mm, 0.3, 0.000000
*KV		=  40
*MA		=  44
*LOW		=  0.000000
*HIGH		=  0.000000
*CTEMPER	=  0, 0.000000
*CTEMPER	=  1, 0.000000
*CTEMPER	=  2, 0.000000
*PAREX		=  0, 0.000000
*PAREX		=  1, 0.000000
*PAREX		=  2, 0.000000
*PAREX		=  3, 0.000000
*PAREX		=  4, 0.000000
*PAREX		=  5, 0.000000
*PAREX		=  6, 0.000000
*PAREX		=  7, 0.000000
*PAREX		=  8, 0.000000
*PAREX		=  9, 0.000000
*PAREX		=  10, 0.000000
*PAREX		=  11, 0.000000
*PAREX		=  12, 0.000000
*PAREX		=  13, 0.000000
*PAREX		=  14, 0.000000
*PAREX		=  15, 0.000000
*FULL_SCALE	=  1435138
*INDEX		=  0, 0, 0
*COUNT		=  7601
767, 794, 798, 809
717, 713, 732, 730
695, 685, 709, 686
674, 663, 670, 643
615, 689, 655, 670
587, 626, 658, 588
579, 626, 598, 605
566, 541, 638, 605
545, 577, 544, 528
540, 565, 559, 526
584, 552, 558, 583
536, 492, 531, 508
552, 532, 569, 512
520, 533, 543, 522
493, 514, 534, 521
497, 496, 476, 517
508, 480, 504, 528
574, 564, 528, 538
565, 572, 542, 606
542, 542, 576, 565
537, 531, 571, 570
551, 554, 572, 584
537, 502, 550, 511
509, 471, 464, 449
493, 455, 459, 476
430, 466, 510, 469
429, 458, 437, 426
471, 395, 415, 452
449, 424, 463, 451
437, 442, 450, 417
461, 427, 407, 443
442, 436, 436, 447
436, 415, 421, 429
398, 471, 447, 411
423, 421, 460, 455
429, 476, 465, 479
462, 494, 472, 429
476, 482, 455, 478
560, 516, 553, 503
573, 594, 582, 575
629, 623, 665, 623
710, 661, 720, 644
607, 597, 582, 617
428, 397, 447, 421
425, 390, 440, 414
421, 410, 428, 418
442, 415, 406, 402
450, 433, 430, 429
441, 404, 402, 390
472, 442, 389, 405
387, 378, 402, 420
419, 426, 435, 387
422, 421, 401, 402
414, 434, 428, 387
401, 435, 407, 404
371, 421, 421, 398
398, 405, 402, 391
408, 384, 386, 389
411, 412, 409, 403
350, 357, 365, 345
350, 351, 350, 349
403, 385, 359, 349
354, 336, 340, 366
342, 339, 347, 385
392, 336, 350, 354
371, 355, 331, 350
341, 364, 375, 387
349, 334, 351, 344
346, 368, 368, 372
342, 373, 357, 376
358, 353, 377, 344
340, 334, 344, 342
348, 352, 351, 343
365, 314, 352, 315
342, 341, 395, 349
337, 354, 334, 349
342, 348, 365, 330
341, 354, 353, 358
376, 359, 344, 322
303, 357, 353, 347
378, 373, 378, 352
371, 380, 388, 407
396, 413, 398, 397
395, 408, 427, 448
445, 434, 427, 426
446, 488, 459, 475
479, 474, 428, 445
476, 490, 460, 514
476, 521, 496, 488
490, 521, 501, 529
519, 482, 483, 502
532, 545, 516, 520
558, 521, 552, 479
541, 494, 521, 529
534, 570, 522, 548
538, 571, 521, 576
533, 563, 508, 521
568, 534, 552, 543
537, 492, 500, 541
498, 493, 498, 510
391, 409, 393, 400
409, 446, 379, 408
411, 382, 437, 400
393, 408, 418, 374
455, 400, 432, 421
421, 458, 422, 432
427, 416, 405, 380
420, 404, 435, 441
441, 443, 433, 438
436, 426, 486, 443
472, 475, 448, 463
478, 480, 450, 486
467, 480, 454, 463
478, 435, 446, 457
492, 428, 483, 502
457, 477, 463, 451
467, 483, 464, 492
464, 447, 476, 451
510, 501, 486, 502
538, 528, 464, 545
491, 584, 538, 519
624, 621, 577, 621
763, 760, 764, 777
689, 718, 651, 683
550, 538, 544, 580
540, 517, 519, 531
503, 524, 515, 537
532, 550, 504, 555
518, 515, 505, 514
503, 503, 542, 534
492, 556, 488, 525
476, 510, 474, 478
457, 516, 543, 537
527, 529, 507, 508
507, 509, 531, 508
470, 487, 523, 529
529, 494, 474, 530
509, 486, 529, 500
485, 470, 491, 484
540, 509, 496, 524
498, 529, 487, 537
493, 477, 523, 505
527, 478, 532, 507
610, 620, 578, 599
1213, 1118, 1229, 1291
817, 767, 748, 722
551, 528, 555, 523
497, 520, 497, 461
469, 521, 499, 488
515, 491, 442, 508
464, 481, 464, 481
502, 487, 428, 505
446, 461, 437, 441
477, 469, 453, 454
453, 483, 442, 446
461, 467, 424, 440
488, 491, 510, 542
457, 493, 421, 433
454, 426, 404, 449
450, 425, 449, 447
428, 440, 433, 404
439, 447, 414, 436
423, 406, 431, 452
409, 413, 444, 411
397, 431, 379, 403
443, 416, 426, 411
431, 399, 420, 429
392, 404, 402, 420
422, 384, 428, 419
419, 410, 396, 373
385, 377, 385, 411
356, 414, 414, 416
414, 388, 404, 435
402, 396, 377, 383
400, 410, 417, 388
398, 375, 386, 401
402, 372, 384, 385
405, 408, 400, 353
350, 370, 398, 396
362, 393, 392, 392
379, 382, 430, 372
391, 391, 352, 386
348, 375, 364, 387
396, 373, 385, 381
370, 380, 346, 342
368, 384, 388, 363
380, 340, 345, 365
488, 464, 403, 412
327, 377, 374, 389
356, 394, 368, 373
335, 373, 371, 356
389, 368, 357, 386
336, 359, 358, 339
377, 372, 391, 334
338, 383, 316, 354
357, 346, 339, 359
351, 352, 339, 350
380, 336, 391, 374
346, 354, 363, 376
361, 368, 335, 356
356, 356, 333, 343
381, 369, 370, 358
362, 342, 327, 344
342, 287, 317, 330
437, 476, 461, 514
428, 476, 409, 439
5624, 6087, 5992, 5617
503, 509, 497, 467
413, 421, 373, 404
413, 398, 379, 382
395, 387, 359, 393
394, 380, 369, 388
421, 356, 411, 369
385, 376, 353, 387
421, 384, 394, 367
401, 359, 363, 383
437, 415, 451, 474
413, 434, 427, 496
444, 364, 386, 353
427, 388, 416, 347
361, 348, 413, 373
478, 499, 423, 424
363, 399, 392, 374
688, 687, 855, 833
990, 1028, 1001, 1057
1011, 1088, 972, 1008
1106, 1076, 1086, 989
1079, 1112, 1079, 1101
1126, 1134, 1127, 1138
1291, 1282, 1278, 1295
1594, 1558, 1562, 1568
2806, 3078, 3250, 3449
16572, 18373, 20316, 21904
47594, 47492, 50442, 57576
7151, 6509, 6034, 5654
2311, 2200, 2284, 2221
1572, 1521, 1473, 1526
1265, 1321, 1266, 1204
1080, 1094, 1108, 1089
1048, 1010, 987, 1004
959, 900, 956, 904
843, 852, 874, 908
718, 791, 814, 787
812, 782, 791, 859
728, 776, 795, 784
779, 737, 733, 747
739, 749, 730, 751
717, 710, 754, 702
660, 708, 728, 710
661, 733, 684, 677
669, 733, 663, 662
622, 661, 684, 665
631, 617, 676, 656
650, 674, 625, 591
655, 609, 646, 632
657, 631, 625, 620
666, 569, 600, 605
573, 616, 606, 570
596, 620, 636, 599
616, 623, 601, 629
557, 627, 592, 604
609, 617, 589, 582
587, 610, 556, 590
592, 565, 614, 578
538, 541, 564, 582
523, 580, 595, 569
550, 585, 543, 558
605, 531, 536, 546
554, 547, 530, 544
556, 545, 520, 550
539, 560, 503, 536
515, 583, 532, 555
570
*END

*EOF